Folder: AbsorbanciaPH

Note: E5_agua2.txt
"E5_agua2 - RawData"
"Wavelength nm."	"Abs."
190.000	 
191.000	 
192.000	 
193.000	 
194.000	 
195.000	 
196.000	 
197.000	 
198.000	 
199.000	 
200.000	3.939896
201.000	4.000000
202.000	3.637436
203.000	3.874115
204.000	3.870407
205.000	3.758774
206.000	3.919403
207.000	3.842545
208.000	3.740509
209.000	3.607651
210.000	4.000000
211.000	3.882767
212.000	3.741180
213.000	4.000000
214.000	3.966995
215.000	3.736740
216.000	3.952972
217.000	4.000000
218.000	3.927307
219.000	3.950455
220.000	3.914673
221.000	3.830582
222.000	3.915314
223.000	3.849228
224.000	4.000000
225.000	3.902328
226.000	3.871384
227.000	3.907761
228.000	3.774506
229.000	3.539795
230.000	3.312195
231.000	3.220306
232.000	3.083145
233.000	2.941605
234.000	2.874954
235.000	2.819305
236.000	2.689438
237.000	2.637955
238.000	2.583252
239.000	2.547287
240.000	2.476593
241.000	2.426117
242.000	2.351395
243.000	2.304596
244.000	2.272507
245.000	2.224457
246.000	2.193222
247.000	2.163651
248.000	2.129318
249.000	2.113586
250.000	2.080688
251.000	2.069931
252.000	2.068130
253.000	2.046753
254.000	2.050949
255.000	2.050568
256.000	2.067505
257.000	2.081528
258.000	2.107224
259.000	2.110123
260.000	2.127579
261.000	2.140915
262.000	2.179321
263.000	2.180588
264.000	2.211777
265.000	2.219894
266.000	2.232559
267.000	2.227036
268.000	2.242157
269.000	2.236572
270.000	2.220078
271.000	2.225174
272.000	2.208389
273.000	2.192032
274.000	2.139526
275.000	2.153473
276.000	2.095291
277.000	2.059189
278.000	2.032822
279.000	2.001312
280.000	1.969284
281.000	1.929749
282.000	1.885208
283.000	1.846664
284.000	1.806458
285.000	1.774017
286.000	1.736038
287.000	1.714783
288.000	1.680801
289.000	1.652725
290.000	1.627075
291.000	1.594147
292.000	1.569748
293.000	1.556015
294.000	1.533005
295.000	1.509094
296.000	1.497589
297.000	1.487579
298.000	1.472427
299.000	1.458008
300.000	1.455795
301.000	1.451248
302.000	1.449478
303.000	1.448059
304.000	1.460159
305.000	1.458511
306.000	1.470596
307.000	1.472672
308.000	1.486450
309.000	1.481232
310.000	1.492523
311.000	1.497971
312.000	1.514114
313.000	1.513840
314.000	1.536987
315.000	1.545731
316.000	1.547043
317.000	1.553436
318.000	1.556213
319.000	1.556274
320.000	1.566345
321.000	1.557770
322.000	1.557373
323.000	1.562714
324.000	1.560577
325.000	1.560608
326.000	1.554703
327.000	1.545181
328.000	1.544037
329.000	1.530716
330.000	1.510864
331.000	1.489456
332.000	1.482864
333.000	1.458130
334.000	1.453552
335.000	1.434845
336.000	1.402237
337.000	1.389648
338.000	1.366348
339.000	1.344620
340.000	1.342087
341.000	1.316589
342.000	1.288391
343.000	1.250854
344.000	1.222672
345.000	1.201584
346.000	1.177490
347.000	1.140549
348.000	1.109085


Note: E5_agua 1.txt
"E5_agua 1 - RawData"
"Wavelength nm."	"Abs."
190.000	 
191.000	 
192.000	 
193.000	 
194.000	 
195.000	 
196.000	 
197.000	 
198.000	 
199.000	 
200.000	3.863754
201.000	3.937958
202.000	3.596924
203.000	3.709198
204.000	3.573257
205.000	3.946274
206.000	3.970535
207.000	3.722260
208.000	3.923386
209.000	3.664856
210.000	3.993103
211.000	3.876755
212.000	3.857269
213.000	3.864426
214.000	3.906998
215.000	3.846405
216.000	3.840363
217.000	3.980194
218.000	3.819534
219.000	3.948349
220.000	3.941666
221.000	3.829834
222.000	3.941467
223.000	3.882355
224.000	3.977692
225.000	3.792374
226.000	3.765152
227.000	3.678543
228.000	3.447388
229.000	3.101624
230.000	3.008667
231.000	2.796310
232.000	2.707062
233.000	2.576096
234.000	2.509491
235.000	2.422791
236.000	2.333679
237.000	2.269897
238.000	2.213715
239.000	2.171051
240.000	2.117905
241.000	2.065887
242.000	2.007019
243.000	1.979340
244.000	1.941666
245.000	1.898865
246.000	1.875351
247.000	1.843781
248.000	1.823074
249.000	1.805267
250.000	1.777588
251.000	1.770004
252.000	1.757629
253.000	1.753769
254.000	1.752090
255.000	1.759048
256.000	1.771591
257.000	1.779083
258.000	1.789886
259.000	1.805923
260.000	1.826111
261.000	1.843460
262.000	1.854324
263.000	1.868591
264.000	1.883636
265.000	1.873566
266.000	1.898743
267.000	1.886810
268.000	1.893066
269.000	1.892151
270.000	1.887253
271.000	1.879395
272.000	1.851166
273.000	1.837006
274.000	1.827408
275.000	1.802231
276.000	1.776093
277.000	1.749283
278.000	1.716431
279.000	1.692093
280.000	1.659851
281.000	1.631577
282.000	1.598068
283.000	1.573853
284.000	1.533936
285.000	1.509811
286.000	1.474213
287.000	1.452682
288.000	1.434448
289.000	1.403610
290.000	1.380310
291.000	1.359787
292.000	1.334671
293.000	1.321533
294.000	1.297058
295.000	1.287903
296.000	1.275116
297.000	1.263107
298.000	1.257462
299.000	1.248810
300.000	1.242554
301.000	1.236862
302.000	1.236267
303.000	1.240677
304.000	1.240814
305.000	1.247528
306.000	1.250076
307.000	1.252563
308.000	1.264938
309.000	1.268906
310.000	1.275970
311.000	1.284454
312.000	1.293274
313.000	1.303101
314.000	1.298340
315.000	1.317154
316.000	1.321487
317.000	1.325775
318.000	1.330551
319.000	1.337204
320.000	1.333588
321.000	1.336823
322.000	1.333313
323.000	1.332764
324.000	1.331619
325.000	1.325500
326.000	1.322998
327.000	1.320038
328.000	1.315567
329.000	1.305466
330.000	1.294876
331.000	1.286255
332.000	1.280869
333.000	1.260574
334.000	1.243607
335.000	1.226028
336.000	1.208038
337.000	1.192184
338.000	1.169754
339.000	1.158112
340.000	1.135788
341.000	1.115738
342.000	1.082458
343.000	1.067520
344.000	1.045685
345.000	1.014618
346.000	0.996185
347.000	0.972366
348.000	0.945648

Note: README.md
# AbsorbanciaPH
Este es un repositorio donde subire el código y archivos de los resultados obtenidos para las sustancias analizadas en el laboratorio de introducción a los materiales.

File: E5_bicarbonato.txt
"E5_bicarbonato - RawData"
"Wavelength nm."	"Abs."
190.000
194.000
198.000
202.000	3.813126
206.000	3.758743
210.000	3.747650
214.000	3.983383
218.000	3.875595
222.000	3.903625
226.000	3.878403
230.000	3.389496
234.000	2.624710
238.000	2.244156
242.000	2.079453
246.000	1.985046
250.000	1.917374
254.000	1.896042
258.000	1.924561
262.000	1.935165
266.000	1.902328
270.000	1.827911
274.000	1.721970
278.000	1.579407
282.000	1.438782
286.000	1.333405
290.000	1.271027
294.000	1.220184
298.000	1.202805
302.000	1.204193
306.000	1.227615
310.000	1.257477
314.000	1.281097
318.000	1.294037
322.000	1.298004
326.000	1.311584
330.000	1.310745
334.000	1.298309
338.000	1.264572
342.000	1.253281
346.000	1.216248
350.000	1.183212
354.000	1.139572
358.000	1.112198
362.000	1.081482
366.000	1.059677
370.000	1.036667
374.000	1.017593
378.000	0.992004
382.000	0.963959
386.000	0.926743
390.000	0.888718
394.000	0.842804
398.000	0.791672
402.000	0.733063
406.000	0.672012
410.000	0.610413
414.000	0.549774
418.000	0.490097
422.000	0.434875
426.000	0.381210
430.000	0.331802
434.000	0.286041
438.000	0.246902
442.000	0.212112
446.000	0.182220
450.000	0.155838
454.000	0.132523
458.000	0.113342
462.000	0.097885
466.000	0.085281
470.000	0.075302
474.000	0.067673
478.000	0.062180
482.000	0.058929
486.000	0.057556
490.000	0.057251
494.000	0.058121
498.000	0.059799
502.000	0.062897
506.000	0.066772
510.000	0.071548
514.000	0.076599
518.000	0.082733
522.000	0.090103
526.000	0.098434
530.000	0.107758
534.000	0.117905
538.000	0.129074
542.000	0.141235
546.000	0.154144
550.000	0.167679
554.000	0.181747
558.000	0.195816
562.000	0.209244
566.000	0.222656
570.000	0.235489
574.000	0.247162
578.000	0.258652
582.000	0.271317
586.000	0.283234
590.000	0.296906
594.000	0.307236
598.000	0.315948
602.000	0.321289
606.000	0.322281
610.000	0.318253
614.000	0.307953
618.000	0.290848
622.000	0.267365
626.000	0.238724
630.000	0.206894
634.000	0.176147
638.000	0.146561
642.000	0.121033
646.000	0.099045
650.000	0.081207
654.000	0.067429
658.000	0.057419
662.000	0.049805
666.000	0.044540
670.000	0.040558
674.000	0.037216
678.000	0.034302
682.000	0.031876
686.000	0.029922
690.000	0.028275
694.000	0.027634
698.000	0.023727
702.000	0.015167
706.000	0.011688
710.000	0.009659
714.000	0.008102
718.000	0.006500
722.000	0.005264
726.000	0.004135
730.000	0.002991
734.000	0.002014
738.000	0.001343
742.000	0.000793
746.000	0.000275
750.000	-0.000137
754.000	-0.000443
758.000	-0.000534
762.000	-0.000336
766.000	-0.000458
770.000	-0.000610
774.000	-0.000610
778.000	-0.000854
782.000	-0.000748
786.000	-0.000748
790.000	-0.000671
794.000	-0.000687
798.000	-0.000519
802.000
806.000
810.000
814.000
818.000
822.000
826.000
830.000
834.000
838.000
842.000
846.000
850.000
854.000
858.000
862.000
866.000
870.000
874.000
878.000
882.000
886.000
890.000
894.000
898.000
902.000
906.000
910.000
914.000
918.000
922.000
926.000
930.000
934.000
938.000
942.000
946.000
950.000
954.000
958.000
962.000
966.000
970.000
974.000
978.000
982.000
986.000
990.000
994.000
998.000
1002.000
1006.000
1010.000
1014.000
1018.000
1022.000
1026.000
1030.000
1034.000
1038.000
1042.000
1046.000
1050.000
1054.000
1058.000
1062.000
1066.000
1070.000
1074.000
1078.000
1082.000
1086.000
1090.000
1094.000
1098.000
1100.000